"Time (s)","Linear Acceleration x (m/s^2)","Linear Acceleration y (m/s^2)","Linear Acceleration z (m/s^2)","Absolute acceleration (m/s^2)"
1.561286250E-1,-3.277452081E-2,-1.036623627E-1,-2.592653136E-3,1.087509839E-1
1.661386250E-1,-3.430122882E-2,-9.602063656E-2,4.890494227E-2,1.130850579E-1
1.761176250E-1,-2.122743934E-2,-1.075191861E-1,6.126714845E-3,1.097657333E-1
1.861276250E-1,-2.262112319E-2,-8.280826807E-2,1.578631282E-2,8.728191192E-2
1.961376250E-1,-1.741417766E-2,-5.645428240E-2,1.358542313E-2,6.062098075E-2
2.061166250E-1,-1.308636099E-2,-1.248585194E-1,2.968163838E-2,1.290034975E-1
2.161266250E-1,-1.146375865E-2,-9.850745738E-2,2.406713963E-3,9.920145762E-2
2.261056250E-1,-3.851297826E-2,-1.242656118E-1,7.806035180E-3,1.303308327E-1
2.361156250E-1,-2.571313083E-2,-7.904032230E-2,-3.215500832E-2,8.912060484E-2
2.460946250E-1,-5.438407570E-2,-1.094049132E-1,9.942605495E-3,1.225802518E-1
2.561046250E-1,-4.828923047E-2,-6.748096168E-2,9.673631291E-3,8.354106242E-2
2.660836250E-1,-3.628401965E-2,-1.297760278E-1,-6.232897997E-2,1.484696912E-1
2.760936250E-1,-2.286378264E-2,-9.688193142E-2,-2.896359801E-2,1.036713615E-1
2.860726250E-1,-4.835384220E-2,-1.007492799E-1,-1.825383668E-2,1.132330076E-1
2.960826250E-1,-2.227730691E-2,-7.639270306E-2,-6.081104279E-3,7.980666208E-2
3.060926250E-1,-2.923490882E-2,-1.348724610E-1,1.570678954E-2,1.388955142E-1
3.160716250E-1,-3.660240054E-2,-9.512425840E-2,-8.867887259E-3,1.023083559E-1
3.260816250E-1,-1.036185086E-2,-1.095417380E-1,-6.744176249E-3,1.102372180E-1
3.360606250E-1,-2.635661691E-2,-1.061012363E-1,3.675559759E-2,1.153391415E-1
3.460706250E-1,-1.386053234E-2,-1.021619672E-1,3.932135582E-2,1.103419726E-1
3.560496250E-1,-5.898086429E-3,-8.674344420E-2,1.063491583E-2,8.759174602E-2
3.660596250E-1,-2.803155184E-3,-1.150071305E-1,4.385411739E-2,1.231165357E-1
3.760386250E-1,-1.365061730E-2,-5.943870127E-2,-5.964157681E-3,6.127699192E-2
3.860486250E-1,-1.246684849E-2,-1.187195277E-1,2.249423862E-2,1.214732042E-1
3.960586250E-1,-5.453405678E-2,-8.601897418E-2,5.334999561E-3,1.019886733E-1
4.060376250E-1,-5.067781806E-2,-9.481552541E-2,-1.173185120E-2,1.081474060E-1
4.160476250E-1,-4.361408919E-2,-7.745221853E-2,-1.398420095E-2,8.998106916E-2
4.260266250E-1,-2.687497258E-2,-1.070660269E-1,-2.092718254E-2,1.123536615E-1
4.360366250E-1,-2.980530471E-2,-5.834000945E-2,-1.024198065E-2,6.630845390E-2
4.460156250E-1,-3.668426156E-2,-8.555528998E-2,8.832803965E-3,9.350647633E-2
4.560256250E-1,-2.428202480E-2,-1.068473411E-1,-9.415185502E-3,1.099755279E-1
4.660046250E-1,-2.445831835E-2,-1.090710372E-1,-2.762458563E-2,1.151425995E-1
4.760146250E-1,-2.723516107E-2,-1.128986245E-1,-8.832803965E-3,1.164726227E-1
4.859936250E-1,-3.423135459E-2,-1.348999429E-1,-1.351873975E-3,1.391819234E-1
4.960036250E-1,7.184766233E-3,-1.486040622E-1,6.782772441E-3,1.489321798E-1
5.060126250E-1,-3.793147266E-2,-8.377422810E-2,3.692166080E-2,9.909655366E-2
5.159926250E-1,6.902638078E-3,-1.031869841E-1,2.692993641E-2,1.068663725E-1
5.260016250E-1,-1.493261933E-2,-9.882262230E-2,7.610735893E-3,1.002338122E-1
5.359816250E-1,-2.908405066E-3,-7.405674040E-2,1.525421619E-2,7.566736900E-2
5.459906250E-1,-2.560612679E-2,-1.344660795E-1,8.230540752E-3,1.371296542E-1
5.559706250E-1,-3.475000262E-3,-1.103200024E-1,6.964033842E-3,1.105941966E-1
5.659796250E-1,-2.781608194E-2,-1.075595319E-1,-2.057048182E-3,1.111171399E-1
5.759596250E-1,-2.735649079E-2,-8.070151627E-2,2.048862081E-3,8.523678873E-2
5.859686250E-1,-3.622408569E-2,-8.754626691E-2,2.340055704E-3,9.477346198E-2
5.959486250E-1,-3.474649429E-2,-9.942079246E-2,-2.976229341E-3,1.053597209E-1
6.059586250E-1,-5.753981799E-2,-1.237685984E-1,2.767487168E-2,1.392673513E-1
6.159676250E-1,-3.853051990E-2,-1.004838163E-1,3.946871707E-3,1.076901857E-1
6.259476250E-1,-3.919593304E-2,-1.104544884E-1,-1.114946966E-2,1.177320086E-1
6.359566250E-1,-2.296113878E-2,-1.170460546E-1,-4.412776709E-2,1.271780351E-1
6.459366250E-1,-4.503876328E-2,-1.366763270E-1,-2.850400686E-2,1.467016938E-1
6.559456250E-1,-3.663748384E-2,-7.759430587E-2,6.173490286E-3,8.603077070E-2
6.659256250E-1,2.839700282E-3,-1.104463023E-1,-1.376668339E-2,1.113371958E-1
6.759346250E-1,-3.655094504E-2,-8.757901132E-2,-4.765480757E-3,9.501981169E-2
6.859146250E-1,-1.316676021E-2,-9.328823268E-2,3.147088408E-2,9.933012875E-2
6.959236250E-1,7.124832273E-3,-1.086190474E-1,-3.259236863E-3,1.089012549E-1
7.059336250E-1,-1.023438156E-2,-1.382995141E-1,1.220431079E-2,1.392136608E-1
7.159126250E-1,-2.311842889E-2,-9.544643998E-2,4.524577756E-3,9.831051044E-2
7.259226250E-1,-6.243072152E-3,-6.703657329E-2,5.447266102E-3,6.754665659E-2
7.359016250E-1,-2.007407606E-2,-6.754995883E-2,4.411139488E-3,7.060753231E-2
7.459116250E-1,-1.693938375E-3,-4.657307267E-2,-2.502725244E-2,5.289880802E-2
7.558906250E-1,-2.397095293E-2,-9.227666438E-2,5.920891712E-3,9.552301467E-2
7.659006250E-1,-3.263331056E-2,-8.276850700E-2,5.040299892E-4,8.897085341E-2
7.758796250E-1,-3.682459474E-2,-8.051031232E-2,-1.749136319E-2,9.024360893E-2
7.858896250E-1,-4.641227424E-2,-9.849810183E-2,1.486946940E-2,1.098957524E-1
7.958686250E-1,-5.897647887E-2,-9.281168461E-2,-1.313752641E-2,1.107466860E-1
8.058786250E-1,-5.747812986E-2,-1.056445688E-1,9.074878693E-3,1.206103800E-1
8.158886250E-1,-4.431692451E-2,-1.248018014E-1,-1.716859460E-2,1.335448991E-1
8.258676250E-1,-2.202470720E-2,-1.166753411E-1,-2.699074745E-2,1.217650336E-1
8.358776250E-1,-3.957044721E-2,-8.882446826E-2,-2.927817822E-2,1.015520466E-1
8.458566250E-1,-1.512323856E-2,-8.139324188E-2,1.452331538E-2,8.405057322E-2
8.558666250E-1,-2.495884001E-2,-7.755454481E-2,2.942318916E-3,8.152489408E-2
8.658456250E-1,-1.269021213E-2,-1.288264400E-1,4.269636869E-3,1.295203572E-1
8.758556250E-1,-2.179666579E-2,-1.124899042E-1,-9.635041952E-3,1.149865523E-1
8.858346250E-1,-1.032179743E-2,-9.822796047E-2,8.602421384E-3,9.914269198E-2
8.958446250E-1,1.053375900E-2,-1.301660371E-1,-7.310189009E-3,1.307960097E-1
9.058546250E-1,-2.120814353E-2,-1.091675162E-1,-8.642187018E-3,1.115438001E-1
9.158336250E-1,-1.803427488E-2,-8.302169144E-2,3.451845517E-2,9.170256304E-2
9.258436250E-1,-1.063140750E-2,-8.913612485E-2,-1.330592394E-2,9.074868148E-2
9.358226250E-1,-2.704278767E-2,-8.181599557E-2,6.733654687E-3,8.643212136E-2
9.458326250E-1,-3.448278487E-2,-1.190189052E-1,-8.431684971E-3,1.242000626E-1
9.558116250E-1,-1.596114457E-2,-9.161534429E-2,1.405670643E-3,9.300594258E-2
9.658216250E-1,-2.121516019E-2,-1.093832785E-1,-2.260767460E-2,1.136920911E-1
9.758006250E-1,-5.461708724E-2,-9.783912063E-2,-2.617213726E-2,1.150673738E-1
9.858106250E-1,-1.999396920E-2,-9.721229911E-2,-4.702329686E-3,9.935845111E-2
9.957896250E-1,-1.215080649E-2,-1.163467276E-1,-2.886302590E-2,1.204876649E-1
1.005799625E0,-3.046604007E-2,-9.413783312E-2,-1.033436666E-2,9.948321646E-2
1.015809625E0,-1.020339131E-2,-1.382702780E-1,-9.881794453E-4,1.386497583E-1
1.025788625E0,-1.813455462E-2,-7.195875943E-2,-4.328106742E-3,7.433476735E-2
1.035798625E0,-3.033418536E-2,-8.286615551E-2,-1.676513672E-2,8.982222631E-2
1.045803583E0,-3.498476833E-2,-7.728498816E-2,-1.286036839E-2,8.580380228E-2
1.055813583E0,-7.492329776E-3,-1.257022727E-1,-7.973262122E-3,1.261775307E-1
1.065792583E0,-1.967091054E-2,-1.204479647E-1,1.138569832E-2,1.225736148E-1
1.075802583E0,-1.851988614E-2,-1.072233170E-1,1.399472708E-2,1.097072390E-1
1.085781583E0,-3.003860861E-2,-1.061778349E-1,1.560034852E-3,1.103561703E-1
1.095791583E0,-3.817588627E-2,-1.144645089E-1,1.477123390E-2,1.215636107E-1
1.105800583E0,-6.704709828E-3,-1.124881500E-1,-5.177127023E-3,1.128066473E-1
1.115780583E0,-4.734490514E-2,-1.204427022E-1,2.598853469E-2,1.319976836E-1
1.125789583E0,-2.686240107E-2,-6.164836407E-2,-2.635920248E-3,6.729827233E-2
1.135769583E0,-1.710778356E-2,-9.690064251E-2,-2.555817733E-2,1.016643065E-1
1.145778583E0,-3.751661271E-2,-1.020853686E-1,1.543662648E-3,1.087717868E-1
1.155758583E0,-2.995850176E-2,-1.287089109E-1,-5.661271911E-3,1.322707284E-1
1.165767583E0,-4.785946012E-2,-8.247205317E-2,4.953761101E-3,9.548144964E-2
1.175747583E0,-2.963924378E-2,-8.848825336E-2,7.327731798E-3,9.360743243E-2
1.185756583E0,-3.223306865E-2,-9.756547093E-2,1.308609147E-3,1.027604218E-1
1.195736583E0,-3.936082453E-2,-1.095967019E-1,-1.737909322E-2,1.177401565E-1
1.205745583E0,-3.499704748E-2,-8.176044703E-2,-8.236385684E-3,8.931630355E-2
1.215755583E0,-4.834477901E-3,-9.491317391E-2,-3.680822025E-2,1.019152974E-1
1.225734583E0,-2.801488727E-2,-8.268489182E-2,-3.786656400E-2,9.516040097E-2
1.235744583E0,-2.330963284E-2,-1.246158600E-1,1.469288578E-2,1.276257515E-1
1.245723583E0,-5.355494052E-2,-7.634534061E-2,-1.326616516E-2,9.419519003E-2
1.255733583E0,-2.746583372E-2,-7.785275280E-2,-1.392806768E-3,8.256732436E-2
1.265713583E0,9.034532905E-3,-7.264814615E-2,-4.674147248E-2,8.685701569E-2
1.275722583E0,4.832723737E-4,-1.060649836E-1,2.696150909E-2,1.094391944E-1
1.285702583E0,-1.952619195E-2,-1.026350069E-1,-5.488196611E-3,1.046199652E-1
1.295711583E0,9.250002801E-3,-1.185809487E-1,-2.541784873E-2,1.216267692E-1
1.305721583E0,-2.524623066E-2,-1.052814567E-1,-1.185113440E-2,1.089128398E-1
1.315700583E0,-3.713508189E-2,-1.108029824E-1,-2.966877222E-3,1.168978939E-1
1.325710583E0,-3.429187328E-2,-1.054954648E-1,1.024434466E-3,1.109336519E-1
1.335689583E0,-6.107241333E-2,-8.678788304E-2,-7.911280494E-3,1.064169379E-1
1.345699583E0,-1.700048715E-2,-1.329387867E-1,-2.475713391E-3,1.340442716E-1
1.355678583E0,-1.844650358E-2,-1.071239144E-1,-2.064651618E-2,1.106439567E-1
1.365688583E0,-3.668543100E-2,-1.000540459E-1,-1.950046420E-2,1.083369792E-1
1.375667583E0,-3.101655543E-2,-7.732416451E-2,-3.448687792E-3,8.338433051E-2
1.385677583E0,-2.640017867E-2,-9.064061344E-2,-1.915664792E-2,9.633103029E-2
1.395656583E0,-4.005985916E-2,-1.161169320E-1,3.828756809E-3,1.228926100E-1
1.405666583E0,-2.342219174E-2,-1.173214585E-1,-9.067862034E-3,1.199797891E-1
1.415676583E0,-4.405672342E-2,-1.283358586E-1,6.278740168E-3,1.358326546E-1
1.425655583E0,-4.265134513E-2,-1.161455834E-1,-4.844998321E-3,1.238241002E-1
1.435665583E0,-1.335591763E-2,-9.427933574E-2,-1.867600451E-2,9.703487428E-2
1.445644583E0,-2.823678911E-2,-1.019374341E-1,2.876011491E-2,1.096161527E-1
1.455654583E0,-2.128240317E-2,-1.209666127E-1,-2.564939390E-2,1.254741148E-1
1.465633583E0,-4.338809431E-2,-8.576228142E-2,-4.221572300E-2,1.049755348E-1
1.475643583E0,1.730483472E-3,-1.272424293E-1,3.309056739E-2,1.314861819E-1
1.485622583E0,-2.218404382E-2,-1.156859922E-1,-1.342403541E-2,1.185562539E-1
1.495632583E0,-2.595111251E-2,-8.787721932E-2,1.079863787E-2,9.226308306E-2
1.505611583E0,-5.074096799E-2,-8.374265313E-2,3.038914919E-2,1.025230617E-1
1.515621583E0,-6.153872877E-2,-7.097350359E-2,6.513800521E-3,9.416306573E-2
1.525631583E0,-5.435367018E-2,-7.696046770E-2,-2.993423353E-2,9.885996858E-2
1.535610583E0,-3.215968609E-2,-1.513259411E-1,-1.618158460E-2,1.555494440E-1
1.545620583E0,-4.304895580E-2,-1.281756449E-1,-1.595237374E-2,1.361495015E-1
1.555599583E0,-3.650621384E-2,-1.426024801E-1,-1.977411389E-2,1.485233535E-1
1.565609583E0,-3.558118433E-2,-1.030519134E-1,-5.782898564E-3,1.091749030E-1
1.575588583E0,-2.106605619E-2,-9.736198783E-2,-3.328235149E-3,9.967051995E-2
1.585598583E0,-6.127706587E-2,-9.651823461E-2,1.761415243E-2,1.156758695E-1
1.595577583E0,-2.338593900E-3,-1.079653287E-1,3.544582129E-3,1.080488097E-1
1.605587583E0,-8.401864171E-3,-6.042571127E-2,-5.563040972E-3,6.126014471E-2
1.615597583E0,-6.460588574E-3,-1.148708904E-1,-1.601552139E-2,1.161617733E-1
1.625576583E0,-8.212414384E-4,-1.050189167E-1,-9.714564085E-3,1.054704701E-1
1.635586583E0,-2.630311489E-2,-1.000704181E-1,-4.578369856E-3,1.035707676E-1
1.645565583E0,-3.031605899E-2,-1.208847517E-1,2.266498188E-2,1.266723649E-1
1.655575583E0,-2.338184595E-2,-7.999224901E-2,-4.192453623E-3,8.344487575E-2
1.665554583E0,-2.347920209E-2,-1.014521152E-1,1.345912327E-2,1.049997743E-1
1.675564583E0,-2.193875313E-3,-5.437676668E-2,-3.800222397E-2,6.637631257E-2
1.685543583E0,-3.710672289E-2,-8.011387110E-2,-1.444846988E-2,8.946451536E-2
1.695553583E0,-4.570008337E-2,-1.055036509E-1,-3.067098498E-2,1.189967533E-1
1.705532583E0,-5.113039255E-2,-1.041049969E-1,-1.505774746E-2,1.169568433E-1
1.715542583E0,-5.319270551E-2,-7.327847600E-2,-1.300186644E-2,9.147812578E-2
1.725551583E0,-3.847847968E-2,-1.352613008E-1,8.117109337E-3,1.408619905E-1
1.735531583E0,-2.669663250E-2,-9.034299016E-2,-4.298288226E-2,1.035475457E-1
1.745540583E0,-4.744167656E-2,-1.087307292E-1,1.719104243E-4,1.186301551E-1
1.755520583E0,-9.188314676E-3,-8.206801057E-2,9.332160749E-3,8.310639391E-2
1.765529583E0,-2.063862473E-2,-6.457548022E-2,-3.197608123E-2,7.495608880E-2
1.775509583E0,-8.977230191E-3,-1.086213863E-1,2.066990733E-2,1.109344008E-1
1.785518583E0,-1.048785836E-2,-1.040588039E-1,-9.877114396E-3,1.050513552E-1
1.795498583E0,-2.210276753E-2,-1.192755979E-1,1.022795190E-2,1.217366485E-1
1.805507583E0,-2.173936307E-2,-7.644123495E-2,2.689721484E-3,7.951790307E-2
1.815517583E0,-1.340181828E-2,-1.041225386E-1,-8.646864791E-3,1.053369833E-1
1.825496583E0,-2.309620947E-2,-8.995181143E-2,9.311103921E-3,9.333520198E-2
1.835506583E0,-1.964138210E-2,-7.853804648E-2,3.815895219E-3,8.104671302E-2
1.845485583E0,1.646868289E-3,-8.303806365E-2,-1.637337099E-2,8.465293537E-2
1.855495583E0,-2.387242734E-2,-1.080156147E-1,-2.708430290E-2,1.138895310E-1
1.865474583E0,-4.937184244E-2,-9.378173769E-2,1.861636519E-2,1.076065156E-1
1.875484583E0,-2.281437367E-2,-1.322277653E-1,-1.513961305E-2,1.350329051E-1
1.885463583E0,-2.258311629E-2,-1.035091656E-1,-1.442391157E-2,1.069214372E-1
1.895473583E0,-1.462008566E-2,-1.163508207E-1,-8.035828471E-2,1.421573575E-1
1.905452583E0,1.399139303E-1,-3.513369691E-1,-3.435227501E-1,5.109025872E-1
1.915462583E0,-1.350347212E-1,2.157944173E-1,-8.486859298E-1,8.860414290E-1
1.925472583E0,-3.010167083E-1,9.239887118E-2,-3.534033751E-1,4.733313381E-1
1.935451583E0,1.284554341E-1,-4.068282151E-1,-7.137240064E-1,8.315118475E-1
1.945461583E0,8.781260759E-2,1.279721618E-2,-9.815089417E-1,9.855123669E-1
1.955440583E0,-2.326586643E-1,1.558130944E-1,-8.409722829E-1,8.863645723E-1
1.965450583E0,-5.387185961E-2,-2.447632778E-1,-5.213237143E-1,5.784372520E-1
1.975429583E0,2.381734657E-1,-4.938353688E-1,-1.240484462E0,1.356245432E0
1.985439583E0,-1.418861961E-1,-8.547109008E-2,-8.155532670E-1,8.322043807E-1
1.995418583E0,-1.117742050E-1,-2.261387265E-1,-9.717546165E-1,1.003961768E0
2.005428583E0,1.132146665E-1,-4.454981911E-1,-1.204029411E0,1.288787423E0
2.015438583E0,-1.034676504E-1,-1.657527763E-1,-6.698149252E-1,6.977331664E-1
2.025417583E0,-1.346552369E-1,7.713997722E-2,-5.136311173E-1,5.365627024E-1
2.035427583E0,-6.453513443E-2,1.072888058E-1,-7.004438102E-1,7.115456435E-1
2.045410208E0,-2.218816611E-1,1.450378454E-1,-8.066619909E-1,8.491001211E-1
2.055420208E0,-4.518494368E-2,5.844876766E-3,-8.481199193E-1,8.493428279E-1
2.065399208E0,4.453531802E-2,-1.795481122E-1,-1.046962674E0,1.063180022E0
2.075409208E0,-6.786395431E-2,-1.633039623E-1,-5.178340960E-1,5.471981829E-1
2.085388208E0,-1.955039942E-1,8.782751799E-2,-5.459545255E-1,5.865166908E-1
2.095398208E0,-1.114488074E-1,-2.512168497E-1,-5.824540150E-1,6.440368172E-1
2.105377208E0,1.619400993E-1,9.695560634E-2,-6.972243333E-1,7.223203973E-1
2.115387208E0,4.947913885E-3,2.189489901E-2,-7.851009679E-1,7.854217964E-1
2.125397208E0,-6.903222799E-3,-4.342241746E-1,-3.123009574E-1,5.349113724E-1
2.135376208E0,9.708541453E-2,-5.104747903E-1,3.367879272E-2,5.207152296E-1
2.145386208E0,1.556268606E-1,-3.649890482E-2,-7.620231771E-1,7.786085103E-1
2.155365208E0,-2.266772550E-1,2.809943801E-1,-2.402924967E-1,4.336829528E-1
2.165375208E0,-1.762070131E-1,-3.630530351E-1,5.533933532E-1,6.849092065E-1
2.175354208E0,2.737695605E-2,9.976226985E-2,-2.435938164E-1,2.646506293E-1
2.185364208E0,-1.234706828E-1,1.462803787E-1,1.066076235E-1,2.191076085E-1
2.195343208E0,-1.425060010E-1,1.679215086E-1,1.236253417E-1,2.525644838E-1
2.205353208E0,4.558898628E-2,-2.266316468E-1,1.638504943E-2,2.317514376E-1
2.215363208E0,3.617087603E-3,-2.908200413E-1,2.614301813E-1,3.910692003E-1
2.225342208E0,-7.868539631E-2,-2.394487435E-1,1.317728519E-1,2.844137424E-1
2.235352208E0,-1.121691844E-1,-2.624780023E-1,3.398857820E-1,4.438456628E-1
2.245331208E0,2.528833061E-2,-2.062558544E-1,2.495710412E-2,2.092936554E-1
2.255341208E0,9.863668084E-2,-5.730271339E-2,-6.217929125E-2,1.299194367E-1
2.265320208E0,-1.602338818E-1,1.811420631E-1,8.142107463E-1,8.493682848E-1
2.275330208E0,-4.072351813E-2,-1.469487154E-1,3.525531900E-1,3.841172759E-1
2.285309208E0,-1.086070606E-1,2.949902755E-1,-1.285533567E-1,3.396184945E-1
2.295319208E0,-3.387584388E-3,1.427030522E-1,3.814898908E-1,4.073207257E-1
2.305298208E0,5.483080298E-2,-2.852739573E-2,3.697755790E-1,3.749055989E-1
2.315308208E0,1.308402210E-1,9.896704853E-2,-3.509522223E-1,3.874030234E-1
2.325317208E0,1.388541225E-1,-9.966052830E-2,-1.323563858E-1,2.161733126E-1
2.335297208E0,-1.423390630E-1,-4.108078301E-2,4.949363995E-1,5.166334088E-1
2.345306208E0,1.985439616E-1,-4.972630066E-1,-2.443598199E-1,5.885591933E-1
2.355286208E0,8.106930614E-2,-4.852592576E-1,-1.766490809E-1,5.227367188E-1
2.365295208E0,-2.609027624E-1,-1.210192376E-1,4.935400844E-1,5.712247563E-1
2.375275208E0,-3.387233555E-2,-1.610451829E-1,-2.221322143E-1,2.764518162E-1
2.385284208E0,-1.592226058E-2,-9.307948709E-2,1.741182050E-2,9.602333462E-2
2.395264208E0,-4.302849054E-2,-6.355923414E-2,4.733321071E-1,4.795148703E-1
2.405273208E0,-8.687705308E-2,1.619281125E-1,2.494410686E-1,3.098212108E-1
2.415283208E0,1.191580689E-1,-1.198228973E-1,-1.930879247E-1,2.565913459E-1
2.425262208E0,-1.874477005E-1,1.470633209E-2,2.015827596E-1,2.756601632E-1
2.435272208E0,-1.514355764E-1,-6.901059330E-2,3.411289001E-1,3.795577983E-1
2.445251208E0,2.353533536E-1,-4.780478865E-1,-2.870316303E-1,6.052339544E-1
2.455261208E0,-1.371031737E-1,2.077322763E-1,7.879777980E-1,8.263528236E-1
2.465240208E0,-8.394262791E-3,8.868355036E-2,1.883890839E-1,2.083882979E-1
2.475250208E0,1.550330758E-1,-2.652244395E-1,-2.019932524E-1,3.676690522E-1
2.485229208E0,-9.543825388E-2,-2.860381883E-1,4.142974484E-1,5.124145599E-1
2.495239208E0,-1.196226302E-1,-9.725673795E-2,1.758748730E-1,2.338812042E-1
2.505218208E0,1.764730614E-1,-2.430734324E-1,-3.960962355E-1,4.971113183E-1
2.515228208E0,-4.751184314E-2,9.855949759E-2,3.266137719E-1,3.444530531E-1
2.525238208E0,-1.328542945E-1,4.101821780E-3,2.818509789E-1,3.116200617E-1
2.535217208E0,1.762812728E-1,-2.815843642E-2,-8.818969452E-1,8.997834221E-1
2.545227208E0,2.920391858E-3,-4.758990347E-2,5.316323555E-1,5.337661370E-1
2.555206208E0,-1.572298747E-1,4.260164380E-2,4.669457781E-1,4.945447333E-1
2.565216208E0,-4.168246150E-2,-3.235667878E-1,-1.845580248E-1,3.748260374E-1
2.575195208E0,-1.264141712E-1,-4.662084442E-1,1.180997229E-1,4.972709530E-1
2.585205208E0,-1.447203416E-1,9.631124318E-2,3.946227372E-1,4.312156508E-1
2.595184208E0,-3.666116506E-2,-1.366582006E-1,-9.821683249E-2,1.722383552E-1
2.605194208E0,-7.161815912E-2,-5.524133599E-1,3.517614770E-1,6.588063582E-1
2.615173208E0,1.265188363E-1,-4.120415926E-2,1.327224580E-1,1.879362912E-1
2.625183208E0,1.129559273E-1,2.795787692E-1,-2.800453405E-1,4.115200146E-1
2.635193208E0,-2.844211408E-1,-3.514936745E-2,7.157366180E-1,7.709797467E-1
2.645172208E0,3.717630476E-2,1.625935256E-1,-6.249854009E-2,1.781145691E-1
2.655182208E0,1.651554832E-1,-5.717348993E-2,6.718916735E-2,1.872418911E-1
2.665161208E0,-2.404974416E-1,-2.068855995E-1,6.213496935E-1,6.976504227E-1
2.675171208E0,1.106614798E-2,-1.687301785E-1,-6.113964717E-2,1.798065327E-1
2.685150208E0,1.829438826E-1,-2.281852520E-1,-5.649544680E-1,6.361686288E-1
2.695160208E0,-1.829853979E-1,-8.804269552E-2,5.597177017E-1,5.954150465E-1
2.705139208E0,3.860828787E-2,1.736207896E-1,-2.580294406E-1,3.133910827E-1
2.715149208E0,9.429366142E-2,-1.466885144E-1,-4.205832052E-1,4.553010513E-1
2.725159208E0,-8.609235674E-2,-5.582863033E-2,7.104834795E-1,7.178547935E-1
2.735138208E0,-2.712874174E-2,6.696231365E-2,6.210208973E-2,9.527113743E-2
2.745148208E0,-8.556055248E-2,-2.370525545E-1,-2.808873761E-1,3.773754626E-1
2.755127208E0,-8.364003450E-2,-2.515910715E-1,5.436097920E-1,6.048184261E-1
2.765137208E0,-5.531144410E-2,-2.202897567E-1,-1.298783358E-1,2.616396660E-1
2.775116208E0,-1.044312716E-1,-1.244521379E-2,2.515006224E-2,1.081355605E-1
2.785126208E0,-6.086220592E-2,-1.492226976E-1,2.735280887E-1,3.174732066E-1
2.795105208E0,5.980327517E-2,4.300627112E-3,-4.226823556E-1,4.269136925E-1
2.805115208E0,-5.054684043E-2,1.058883977E-1,5.607082200E-1,5.728534226E-1
2.815094208E0,-3.977363795E-2,-2.195354658E-1,4.189225960E-1,4.746302819E-1
2.825104208E0,8.781348467E-3,2.515472174E-3,-4.402485609E-2,4.496251366E-2
2.835113208E0,-1.802959710E-1,-7.273877800E-2,1.783307401E-1,2.638170197E-1
2.845093208E0,6.087623924E-2,-1.436538094E-1,-9.651297212E-2,1.834586800E-1
2.855102208E0,8.633472383E-2,-4.419664729E-1,-7.874094486E-2,4.571522548E-1
2.865082208E0,-4.540099829E-2,-7.452451766E-2,3.639365494E-1,3.742525436E-1
2.875092208E0,2.842039168E-3,7.671722353E-2,-6.135202718E-1,6.183047254E-1
2.885071208E0,1.230365270E-1,1.404618144E-2,7.284695148E-2,1.436731030E-1
2.895081208E0,-4.476423651E-2,-2.719551694E-1,6.530778551E-1,7.088541006E-1
2.905060208E0,-1.269769657E-1,6.173958063E-2,-3.488448858E-2,1.454367669E-1
2.915070208E0,-7.134012401E-2,-5.532050729E-2,-3.030062234E-1,3.161685362E-1
2.925079208E0,-7.748467058E-2,-1.062444931E-1,3.622548902E-1,3.853834090E-1
2.935059208E0,2.137332737E-2,-4.791530102E-1,9.416823864E-2,4.887863373E-1
2.945068208E0,-1.252649009E-2,-1.981714940E-1,-2.631410766E-1,3.296544860E-1
2.955048208E0,-5.040299892E-2,3.625098288E-2,6.659276962E-2,9.104500550E-2
2.965057208E0,-1.015222818E-1,-7.310890675E-2,6.597729170E-1,6.715295883E-1
2.975037208E0,3.388139874E-2,-9.090198398E-2,-1.098118703E-1,1.465256521E-1
2.985046208E0,-9.820486397E-2,-1.647979259E-2,1.164590033E-1,1.532268851E-1
2.995026208E0,-9.505175292E-2,1.877131641E-2,3.590295660E-1,3.718728645E-1
3.005035208E0,2.077571270E-1,-2.228379732E-1,-3.474824846E-1,4.621297039E-1
3.015015208E0,-1.621579081E-2,-3.415610093E-1,1.594933319E-1,3.773128647E-1
3.025024208E0,-9.979267538E-2,8.355963528E-2,2.971098912E-1,3.243687379E-1
3.035034208E0,3.705819100E-2,-8.527462363E-2,-3.625156760E-1,3.742494974E-1
3.045045958E0,1.201515108E-2,-1.493618613E-1,1.979913998E-1,2.483020819E-1
3.055055958E0,-6.514441431E-2,-7.883216143E-2,5.602462900E-1,5.695034766E-1
3.065034958E0,-2.860925674E-2,-1.964079738E-2,-1.301789010E-1,1.347248928E-1
3.075044958E0,-3.522713542E-2,1.369090462E-1,-2.451456674E-1,2.829866361E-1
3.085023958E0,-1.408734584E-1,-1.146744239E-1,3.661900663E-1,4.087673170E-1
3.095033958E0,-5.727026135E-2,-2.834467024E-1,3.253742536E-2,2.909993127E-1
3.105012958E0,1.155956528E-1,-1.284492946E-1,-5.453721428E-1,5.720947040E-1
3.115022958E0,-1.483000070E-1,-1.778728849E-1,4.445918727E-1,5.012919195E-1
3.125001958E0,-1.410760644E-1,-1.925692767E-1,3.808361721E-1,4.494680993E-1
3.135011958E0,3.082213551E-2,-8.592717290E-2,-3.191983330E-1,3.319955706E-1
3.145021958E0,-7.779428065E-2,-3.063356280E-3,3.813191521E-1,3.891858554E-1
3.155000958E0,-8.038576663E-2,-5.750385761E-2,3.030576789E-1,3.187671907E-1
3.165010958E0,6.712194264E-2,-1.389386147E-1,-4.335418046E-1,4.601823444E-1
3.174989958E0,-8.993807048E-2,-7.106705904E-3,7.319450998E-1,7.374842310E-1
3.184999958E0,-2.332366616E-2,-7.385793507E-2,-8.050914288E-2,1.117170983E-1
3.194978958E0,3.379456758E-2,-1.221799099E-1,-2.874678326E-1,3.141779081E-1
3.204988958E0,-1.281651199E-1,-1.198451167E-1,6.854889715E-1,7.075904748E-1
3.214967958E0,1.020494083E-1,-1.947122812E-1,-2.181244413E-2,2.209134150E-1
3.224977958E0,4.326764166E-2,-9.265380979E-2,-2.964526641E-1,3.135936851E-1
3.234987958E0,-7.169329584E-2,-1.285101056E-2,5.380911899E-1,5.429983478E-1
3.244966958E0,2.763861895E-2,-1.241416508E-1,-1.729933834E-1,2.147131887E-1
3.254976958E0,9.298446983E-2,-2.401568413E-2,-8.007036781E-1,8.064423382E-1
3.264955958E0,-5.984391332E-2,-8.707907438E-2,2.675533855E-1,2.876610388E-1
3.274965958E0,-6.390100390E-2,-2.002449167E-1,4.279892886E-1,4.768188294E-1
3.284944958E0,-2.270298421E-2,-1.174881041E-1,-3.759502387E-1,3.945344878E-1
3.294954958E0,-1.006402293E-1,-1.253730744E-1,3.243988466E-1,3.620517577E-1
3.304933958E0,-7.572612047E-2,-2.218059397E-1,2.756903708E-1,3.618528717E-1
3.314943958E0,-3.138112932E-2,-3.422726154E-2,-1.847065258E-1,1.904541451E-1
3.324922958E0,-5.296174049E-2,-3.979965806E-2,4.995393276E-2,8.297200815E-2
3.334932958E0,1.187803388E-2,-7.109687984E-2,-2.516887200E-1,2.618073066E-1
3.344942958E0,-2.068569481E-2,-7.259786010E-2,2.075094974E-1,2.208133573E-1
3.354921958E0,-8.645137578E-2,-2.473255277E-2,4.612505901E-1,4.699336617E-1
3.364931958E0,1.734898120E-2,-9.120896280E-2,1.670316537E-2,9.433481742E-2
3.374910958E0,4.327553540E-2,-2.027720833E-1,8.933025241E-2,2.257635571E-1
3.384920958E0,-7.466543555E-2,-2.121165186E-1,4.236588407E-1,4.796406551E-1
3.394899958E0,1.234171808E-2,-5.276527405E-2,-2.216854870E-1,2.282125047E-1
3.404909958E0,3.823494315E-2,-8.173413455E-2,-5.912026191E-1,5.980492592E-1
3.414888958E0,-4.732853293E-2,-7.957475781E-2,4.615686786E-1,4.707629735E-1
3.424898958E0,-1.127577066E-2,-1.173495251E-1,1.320581961E-1,1.770237871E-1
3.434907958E0,-9.592941999E-3,-1.881633997E-2,-3.124904072E-1,3.132033426E-1
3.444887958E0,-1.228079009E-1,-9.091017008E-2,7.234479260E-1,7.394074257E-1
3.454896958E0,-1.179821938E-2,-4.683327377E-2,-2.305872881E-1,2.355908550E-1
3.464876958E0,2.202090651E-2,-1.774589020E-1,-5.479589510E-1,5.763988152E-1
3.474885958E0,-3.794316709E-2,-2.047320700E-1,-7.780071259E-2,2.222787783E-1
3.484865958E0,-1.893913150E-3,-2.047478575E-1,-3.412633860E-1,3.979773494E-1
3.494874958E0,-8.740564138E-2,-1.076291138E-1,2.300668859E-1,2.686159792E-1
3.504854958E0,-7.198361009E-2,-6.776279747E-2,2.746273470E-1,2.918794555E-1
3.514863958E0,-1.728787780E-2,-7.923561931E-3,-9.777947903E-2,9.961164626E-2
3.524843958E0,-1.016450733E-2,-6.503273249E-2,1.765788960E-1,1.884480831E-1
3.534853958E0,1.985685199E-2,-3.764671326E-2,-8.129500866E-2,9.176299921E-2
3.544862958E0,3.601241648E-2,-1.335164917E-1,-5.571940434E-1,5.740982056E-1
3.554842958E0,-1.387953579E-2,-1.893772817E-1,1.777553558E-1,2.601026006E-1
3.564851958E0,-4.781560600E-3,-1.838738823E-1,3.544780934E-1,3.993584688E-1
3.574831958E0,-1.900725156E-2,-6.546367228E-2,-7.917129993E-3,6.862542494E-2
3.584840958E0,-3.387467444E-2,-1.252017510E-1,4.038847268E-1,4.242002411E-1
3.594820958E0,-3.914710879E-3,-1.819869858E-1,-1.820939898E-2,1.829376128E-1
3.604829958E0,-4.201809168E-2,-4.034988105E-2,-1.574982619E-1,1.679265775E-1
3.614809958E0,1.781763554E-2,2.641245782E-2,-4.568476367E-1,4.579572570E-1
3.624818958E0,-3.780604988E-2,-3.456873894E-3,-6.138523023E-2,7.217613092E-2
3.634798958E0,-1.126357922E-1,-2.631147641E-1,3.174008989E-1,4.273868639E-1
3.644807958E0,-1.494361210E-1,-6.018188238E-2,1.653007865E-2,1.619452275E-1
3.654817958E0,-5.209898382E-2,-1.627695268E-1,6.046138386E-2,1.812837608E-1
3.664796958E0,-1.708538872E-1,-1.097066295E-1,2.625774050E-1,3.319239204E-1
3.674806958E0,-8.459400773E-2,-2.159996545E-1,-2.953791153E-1,3.755806420E-1
3.684785958E0,7.213943839E-2,-1.476597369E-1,-4.271741867E-1,4.576956218E-1
3.694795958E0,5.821663320E-2,-1.337381011E-1,5.012724423E-1,5.220623694E-1
3.704774958E0,6.818496644E-2,-2.419794184E-1,1.608873081E-1,2.984760535E-1
3.714784958E0,2.111926585E-2,-1.712064743E-2,-3.002334738E-1,3.014619026E-1
3.724763958E0,-5.992811322E-3,-3.024062991E-2,4.551835191E-1,4.562263096E-1
3.734773958E0,2.876450032E-2,-1.439438313E-1,5.156307737E-2,1.555826918E-1
3.744783958E0,1.542203128E-3,-1.067625564E-1,-6.701611717E-2,1.260626107E-1
3.754762958E0,-5.171979189E-2,-7.124656856E-2,1.616053462E-2,8.951074396E-2
3.764772958E0,2.897090703E-2,-1.006773591E-1,-6.244241595E-2,1.219602370E-1
3.774751958E0,6.248334646E-3,-1.251462024E-1,6.537245572E-1,6.656248270E-1
3.784761958E0,3.881001681E-2,-3.342093050E-2,-7.054314395E-2,8.717517513E-2
3.794740958E0,-1.353425771E-2,-5.864114106E-2,-1.248345459E-1,1.385843548E-1
3.804750958E0,-8.015597105E-2,5.490535498E-4,5.011414647E-1,5.075116243E-1
3.814729958E0,-4.735952318E-2,-1.629139531E-1,-1.469744432E-1,2.244668517E-1
3.824739958E0,-3.866909891E-2,-8.669549704E-2,-5.864558494E-1,5.940891109E-1
3.834718958E0,-6.693336993E-2,-2.129766440E-1,7.140701616E-1,7.481546114E-1
3.844728958E0,7.545831800E-4,-8.462792158E-2,4.536386847E-2,9.602257583E-2
3.854738958E0,-1.040190428E-1,1.206865311E-2,-5.844420683E-1,5.937492273E-1
3.864717958E0,-8.335732162E-2,-2.102629513E-1,8.347239482E-1,8.648254283E-1
3.874727958E0,2.329647660E-2,-2.116469872E-1,-1.197147238E-1,2.442719552E-1
3.884706958E0,-4.246598840E-2,-1.900462031E-2,-3.102672958E-1,3.137360844E-1
3.894716958E0,-4.535392821E-2,-5.945507348E-2,3.253835177E-1,3.338657188E-1
3.904695958E0,-6.751575261E-2,3.043124914E-2,-4.422611725E-1,4.484187580E-1
3.914705958E0,2.673317760E-2,-1.172951460E-1,2.708664179E-1,2.963805500E-1
3.924684958E0,1.112868395E-1,-2.794238180E-1,2.183783019E-1,3.716873867E-1
3.934694958E0,-2.665453255E-3,-2.589205563E-2,-1.103205780E-1,1.133496057E-1
3.944673958E0,3.071834743E-2,-1.176126498E-1,1.707749498E-1,2.096197408E-1
3.954683958E0,-2.540615201E-4,-2.403416133E-1,3.739645700E-2,2.432337366E-1
3.964693958E0,-2.327659607E-2,-5.516204774E-2,-1.968523622E-1,2.057559329E-1
3.974672958E0,-5.149613589E-2,5.171452940E-2,-2.679533350E-1,2.777143034E-1
3.984682958E0,-8.193235517E-2,7.025838912E-2,4.491866148E-1,4.619716084E-1
3.994661958E0,-1.093148661E-1,1.566205949E-1,-8.490858793E-2,2.090196617E-1
4.004671958E0,4.631287158E-3,-2.805476528E-1,1.493624461E-1,3.178640820E-1
4.014650958E0,-8.219489515E-2,-1.717286307E-1,4.924875855E-1,5.280063875E-1
4.024660958E0,-1.681650451E-1,-1.131436229E-2,-2.427763939E-1,2.955467385E-1
4.034639958E0,1.165934801E-3,-3.430152118E-1,5.638587455E-2,3.476207154E-1
4.044645875E0,-8.832979381E-2,-2.984301925E-2,-3.400366402E-1,3.525871168E-1
4.054654875E0,-5.697819293E-2,-2.753336906E-2,-2.218550563E-1,2.307038510E-1
4.064634875E0,2.667499781E-3,-3.255203426E-2,4.341183400E-1,4.353452465E-1
4.074643875E0,4.587725401E-3,-5.265417695E-3,6.608990908E-2,6.645786582E-2
4.084623875E0,-2.084181547E-2,-9.465589643E-2,-1.428381228E-1,1.726176391E-1
4.094632875E0,-1.717824250E-2,-1.832108080E-2,4.048506868E-1,4.056289346E-1
4.104612875E0,1.448472261E-2,-2.237752819E-1,3.315488219E-2,2.266813406E-1
4.114621875E0,4.380997092E-2,-2.952317655E-1,-5.995840180E-1,6.697627218E-1
4.124601875E0,-1.207090428E-1,-1.366301340E-1,-2.272882891E-1,2.913733565E-1
4.134610875E0,-5.038253367E-3,-7.193186224E-2,6.375558364E-1,6.416206211E-1
4.144590875E0,5.030067265E-2,-8.267670572E-2,-3.333123422E-1,3.470773873E-1
4.154599875E0,-4.077848196E-3,-3.835188746E-2,3.331252313E-1,3.353504373E-1
4.164609875E0,-3.811302871E-2,4.425172806E-3,6.230991805E-1,6.242794036E-1
4.174589875E0,-8.238726854E-3,-1.108164310E-2,-4.029269528E-1,4.031635013E-1
4.184598875E0,-8.158035278E-3,-8.268313766E-2,1.345947182E-1,1.581733004E-1
4.194578875E0,-9.835718393E-2,-1.427328730E-1,-4.182279468E-1,4.527266550E-1
4.204587875E0,-7.872515738E-2,-1.641003531E-1,-1.574865675E-1,2.406835999E-1
4.214567875E0,-6.821624905E-2,-1.092031842E-1,4.793126392E-1,4.963057507E-1
4.224576875E0,-3.606153309E-2,-1.322757125E-1,1.057550812E-1,1.731514813E-1
4.234556875E0,-6.189716309E-2,-2.146278977E-2,-5.325527529E-2,8.442768793E-2
4.244565875E0,5.335262686E-2,-1.798819882E-1,3.134727395E-1,3.653343549E-1
4.254545875E0,8.924020529E-2,-5.849203706E-2,-2.304013467E-1,2.539092617E-1
4.264554875E0,-2.862738311E-2,1.216220856E-3,-2.675487077E-1,2.690786451E-1
4.274564875E0,-8.555207402E-2,-2.332612199E-1,-2.644262946E-1,3.628377314E-1
4.284543875E0,-2.394317865E-2,-2.204973328E-1,3.271914768E-1,3.952804221E-1
4.294553875E0,-5.842976421E-2,-1.289749593E-1,-1.089394748E-1,1.786515789E-1
4.304532875E0,7.090655297E-2,-4.243868190E-1,2.202809858E-1,4.833793791E-1
4.314542875E0,5.385694921E-2,-2.334699655E-1,1.966360152E-1,3.099588976E-1
4.324521875E0,-1.016731399E-1,1.313594538E-1,-2.384400988E-1,2.905966521E-1
4.334531875E0,3.979878098E-2,1.063608527E-3,-9.924479127E-2,1.069327023E-1
4.344510875E0,4.200347364E-2,-2.985857284E-1,8.938989401E-2,3.144968715E-1
4.354520875E0,-1.315407175E-1,-4.450198889E-2,-5.097824800E-1,5.283574210E-1
4.364530875E0,-1.179272300E-1,-1.156965172E-1,2.961275589E-1,3.390929767E-1
4.374509875E0,1.355209172E-2,-2.476313370E-1,4.031245887E-1,4.733015659E-1
4.384519875E0,7.332408428E-3,-1.488455522E-1,-7.796794295E-2,1.681896630E-1
4.394498875E0,-7.114892006E-3,-2.144320160E-1,4.441427608E-2,2.190989254E-1
4.404508875E0,-7.887338430E-2,-1.087716597E-1,4.026275297E-2,1.402618052E-1
4.414487875E0,-1.154561967E-2,3.296543241E-2,-8.294275403E-2,8.999734170E-2
4.424497875E0,-1.300751129E-1,2.397381806E-1,-2.610278928E-1,3.775307816E-1
4.434476875E0,-2.499538511E-2,-2.519062364E-1,-1.349198234E-1,2.868534120E-1
4.444486875E0,3.495231628E-2,-1.577444297E-1,3.362909138E-1,3.730905362E-1
4.454465875E0,-7.525892794E-2,-3.522947431E-2,-7.899002711E-2,1.146492323E-1
4.464475875E0,2.053892970E-2,-2.515717757E-1,1.580724585E-1,2.978205972E-1
4.474485875E0,-3.852701157E-2,-1.274780720E-1,4.376792943E-1,4.574911520E-1
4.484464875E0,-2.264819580E-1,4.112639129E-2,-3.104965067E-1,3.865146026E-1
4.494474875E0,9.426384062E-2,-2.471635598E-1,4.224846741E-2,2.678813729E-1
4.504453875E0,-1.224757791E-2,-7.407252789E-2,1.988708210E-1,2.125708023E-1
4.514463875E0,-9.915182054E-2,3.158145493E-1,-5.992460489E-1,6.845916595E-1
4.524442875E0,9.567214251E-2,-2.303908217E-1,2.903294599E-1,3.827849068E-1
4.534452875E0,9.878461540E-2,-5.272668242E-2,3.845199180E-1,4.004922853E-1
4.544431875E0,2.693929195E-2,-2.909755772E-1,-3.741820407E-1,4.747680608E-1
4.554441875E0,-2.023399740E-1,-1.123659432E-2,1.748399341E-1,2.676503852E-1
4.564420875E0,-4.676193774E-2,-1.976850057E-1,2.531516933E-1,3.245794512E-1
4.574430875E0,-2.224193126E-2,-4.274051517E-1,-3.746626818E-1,5.688075179E-1
4.584440875E0,-7.114014924E-2,1.969178510E-1,-6.752247691E-2,2.199928311E-1
4.594419875E0,-2.601426244E-2,-1.285568833E-1,-4.889325241E-2,1.399791564E-1
4.604429875E0,-1.396914437E-1,4.013119519E-2,1.771191788E-1,2.291187809E-1
4.614408875E0,4.977471560E-2,2.387804067E-1,2.089011347E-1,3.211437202E-1
4.624418875E0,7.454644471E-2,-1.150661874E-1,2.725270728E-2,1.397859433E-1
4.634397875E0,-4.453093261E-2,2.775263965E-2,1.721993315E-1,1.800161736E-1
4.644407875E0,-1.293930352E-2,-3.563877940E-2,-4.242739677E-3,3.815165806E-2
4.654386875E0,3.935936272E-2,-3.276136458E-1,-2.374226832E-1,4.065087832E-1
4.664396875E0,-1.803836793E-2,-1.679431432E-1,1.289708662E-1,2.125176849E-1
4.674405875E0,-1.619485778E-1,2.523979872E-1,1.207309790E-1,3.232770563E-1
4.684385875E0,-7.051625133E-2,-2.408596766E-1,-4.797160971E-1,5.413995376E-1
4.694394875E0,1.099080661E-1,-5.414398903E-1,3.128260374E-2,5.533674539E-1
4.704374875E0,2.281378895E-2,1.886978352E-1,2.236068821E-1,2.934746662E-1
4.714383875E0,4.011306882E-2,-6.711200237E-2,-3.879276752E-2,8.728091409E-2
4.724363875E0,-2.733690262E-2,-3.384058517E-1,2.999154081E-2,3.408303379E-1
4.734372875E0,-1.877654967E-1,1.134090865E-1,3.222844934E-1,3.898522763E-1
4.744352875E0,-9.013132095E-2,4.084397078E-2,2.772866607E-2,1.027655773E-1
4.754361875E0,-3.777710617E-2,-5.093053472E-1,1.752200031E-1,5.399269357E-1
4.764341875E0,-2.299397090E-1,-1.847708452E-1,-2.407006323E-1,3.807221157E-1
4.774350875E0,-1.753027412E-1,6.650447667E-2,1.138710256E-1,2.193638689E-1
4.784360875E0,-4.770743251E-3,2.247248697E-1,8.335124052E-1,8.632884550E-1
4.794339875E0,1.026566416E-1,-1.806871498E-1,2.591404116E-1,3.321746304E-1
4.804349875E0,4.812112302E-2,2.782105207E-3,6.870244503E-1,6.887132770E-1
4.814328875E0,8.709866256E-2,-9.801687598E-2,1.099400504E0,1.107192374E0
4.824338875E0,6.442579150E-2,-2.673230052E-1,4.556173825E-1,5.321648908E-1
4.834318875E0,-7.277239949E-2,-5.347921908E-2,5.858582640E-1,5.927779976E-1
4.844327875E0,-2.514244258E-1,1.130529910E-1,1.312554903E0,1.341191856E0
4.854307875E0,-9.596070260E-2,1.830353916E-2,7.860797918E-1,7.921268301E-1
4.864316875E0,4.968145251E-2,-2.969333053E-1,6.905292714E-1,7.533049244E-1
4.874296875E0,1.541410831E-1,-1.795206302E-1,1.000425854E0,1.028026760E0
4.884305875E0,-9.615132183E-2,2.235115725E-1,1.060875539E0,1.088420603E0
4.894315875E0,-3.131388634E-2,-1.624765813E-1,7.988559580E-1,8.158125033E-1
4.904294875E0,4.371407658E-2,-2.393955338E-1,7.083609402E-1,7.489969050E-1
4.914304875E0,-8.260156900E-2,-4.089016378E-2,7.653905886E-1,7.709200853E-1
4.924283875E0,-9.007548004E-2,-6.198048592E-2,7.814283317E-1,7.890408167E-1
4.934293875E0,7.366907001E-3,-3.246894532E-1,7.791385621E-1,8.441175341E-1
4.944272875E0,-1.573398024E-2,-2.383237392E-1,8.794709355E-1,9.113258962E-1
4.954282875E0,-1.388126072E-1,5.943928599E-2,7.163979381E-1,7.321393135E-1
4.964261875E0,-2.867883861E-2,-1.923529297E-1,7.538955474E-1,7.785760218E-1
4.974271875E0,5.537313223E-4,-2.047484422E-1,6.987440246E-1,7.281246069E-1
4.984281875E0,-5.220832676E-2,9.547333717E-3,6.534140700E-1,6.555660210E-1
4.994260875E0,-2.530616462E-2,-1.081348979E-1,5.097438884E-1,5.217014375E-1
5.004270875E0,3.646762222E-2,-2.867895555E-1,5.843543601E-1,6.519571725E-1
5.014249875E0,-9.568676054E-3,-1.877692974E-1,1.783646357E-1,2.591578898E-1
5.024259875E0,-5.872095555E-2,-4.268935204E-2,1.905554956E-1,2.039164739E-1
5.034238875E0,-1.778430641E-3,-8.600786448E-2,2.145302492E-1,2.311357683E-1
5.044264958E0,-2.653115630E-2,-1.294175935E-1,-2.283807317E-2,1.340686143E-1
5.054243958E0,-5.215131640E-2,-6.564902902E-2,1.174103361E-1,1.442731501E-1
5.064253958E0,-5.355786413E-2,9.481669486E-2,1.084693587E-1,1.537018289E-1
5.074232958E0,8.885808975E-2,-2.846716940E-1,-9.749296546E-2,3.137492818E-1
5.084242958E0,-8.040272355E-2,-5.615490496E-2,-1.322172495E-1,1.646188700E-1
5.094252958E0,-6.587531626E-2,-4.593748033E-2,-1.747475481E-1,1.923187847E-1
5.104231958E0,1.277908981E-2,-2.953697598E-1,-2.590275604E-1,3.930672680E-1
5.114241958E0,-1.250400755E-1,3.366943717E-2,-2.266000718E-1,2.609908887E-1
5.124220958E0,-2.094267994E-2,-1.259747529E-1,-2.660641362E-1,2.951243107E-1
5.134230958E0,-1.432304710E-2,-6.874688387E-2,-3.035558617E-1,3.115725355E-1
5.144209958E0,2.426594496E-2,-2.293219507E-2,-1.763964629E-1,1.795283648E-1
5.154219958E0,-5.434402227E-3,-8.922090948E-2,-1.456670058E-1,1.709057635E-1
5.164198958E0,-3.856004834E-2,-1.176260984E-1,-1.737272090E-1,2.133164773E-1
5.174208958E0,-4.405876994E-3,-1.507909209E-1,-9.018748163E-2,1.757586283E-1
5.184187958E0,-1.469580710E-2,-1.338953912E-1,-1.680109710E-1,2.153407274E-1
5.194197958E0,-3.354342967E-2,-1.508353597E-1,-6.480470935E-2,1.675592963E-1
5.204207958E0,-5.020390123E-2,-9.622119606E-2,-1.057083217E-1,1.515031338E-1
5.214186958E0,-8.045184016E-3,-7.696689963E-2,-2.456415296E-3,7.742520650E-2
5.224196958E0,-4.414940178E-3,-8.234633803E-3,-2.161542038E-2,2.354840310E-2
5.234175958E0,-3.371241421E-2,-1.039500457E-1,-1.037937423E-2,1.097719012E-1
5.244185958E0,-1.975189447E-2,-1.246363252E-1,-9.695560634E-2,1.591374893E-1
5.254164958E0,-1.991064638E-2,-1.315377939E-1,-1.025092918E-1,1.679487420E-1
5.264174958E0,-2.365081787E-2,-1.321844959E-1,-1.655101168E-1,2.131330592E-1
5.274153958E0,-8.033138752E-2,-1.189762205E-1,-1.957852453E-1,2.427763068E-1
5.284163958E0,-7.127317339E-2,-7.176697075E-2,-1.611796689E-1,1.902872802E-1
5.294142958E0,-2.510706693E-2,-1.007416785E-1,-2.688222313E-1,2.881746738E-1
5.304152958E0,-2.321110725E-2,-4.519079089E-2,-1.797972035E-1,1.868368205E-1
5.314161958E0,-3.645914376E-2,-6.451993167E-2,-2.500672871E-1,2.608174435E-1
5.324141958E0,-2.908434302E-2,-7.835912168E-2,-1.605879307E-1,1.810373841E-1
5.334150958E0,-1.857689649E-2,-5.148181021E-2,-1.897526729E-1,1.974881129E-1
5.344130958E0,-3.104725331E-2,-1.359863555E-1,-1.627478921E-1,2.143434096E-1
5.354139958E0,-4.579831660E-2,-1.318085200E-1,-1.511668968E-1,2.057240930E-1
5.364119958E0,-1.645172596E-2,-1.520568430E-1,-1.357588989E-1,2.045053090E-1
5.374128958E0,-2.096226811E-2,-1.084225810E-1,-7.934788585E-2,1.359814683E-1
5.384108958E0,-7.768903077E-3,-1.014158624E-1,-2.422911664E-2,1.045589934E-1
5.394117958E0,-1.446308792E-3,-7.304224849E-2,-2.608911593E-2,7.757514965E-2
5.404097958E0,2.036058962E-2,-8.338480353E-2,-2.461560845E-2,8.929449731E-2
5.414106958E0,-2.090555012E-2,-9.146273196E-2,-2.073890448E-2,9.608629206E-2
5.424116958E0,-1.020339131E-2,-1.119344187E-1,-7.263936619E-2,1.338278775E-1
5.434095958E0,-2.682410181E-2,-1.519252807E-1,-1.324908900E-1,2.033584503E-1
5.444105958E0,-5.842128575E-2,-1.206912088E-1,-1.408664600E-1,1.944807807E-1
5.454084958E0,-3.750550300E-2,-1.236241722E-1,-1.273909485E-1,1.814333279E-1
5.464094958E0,-4.366612941E-2,-9.090198398E-2,-1.791873389E-1,2.056161569E-1
5.474073958E0,1.974604726E-3,-9.545404136E-2,-1.571316415E-1,1.838633347E-1
5.484083958E0,-2.904399723E-2,-4.053406835E-2,-1.840317571E-1,1.906679105E-1
5.494063958E0,1.243878186E-2,-7.253003240E-2,-2.018721968E-1,2.148667325E-1
5.504072958E0,-3.828522921E-2,-4.864591062E-2,-1.989076585E-1,2.083181221E-1
5.514082958E0,-2.265913010E-2,-1.380837518E-1,-1.758076483E-1,2.246973251E-1
5.524061958E0,-3.164834708E-2,-1.207894421E-1,-1.408541534E-1,1.882328338E-1
5.534071958E0,-8.752404749E-3,-1.073045933E-1,-1.208455662E-1,1.618472465E-1
5.544050958E0,-3.805952668E-3,-9.461028814E-2,-5.024979274E-2,1.071943728E-1
5.554060958E0,-3.403342634E-2,-8.863969624E-2,-8.317605793E-2,1.262280732E-1
5.564039958E0,9.720996022E-4,-7.653654456E-2,-6.876734912E-2,1.028967246E-1
5.574049958E0,-3.621151417E-2,-7.268030584E-2,6.771075726E-4,8.120442778E-2
5.584028958E0,-3.110631019E-2,-1.713970935E-1,-4.889557759E-2,1.809291124E-1
5.594038958E0,-8.046645820E-3,-1.286434221E-1,-2.285082741E-3,1.289150890E-1
5.604017958E0,-2.804850876E-2,-1.145352602E-1,-6.000997424E-3,1.180722518E-1
5.614027958E0,-3.399746597E-2,-9.948569655E-2,-3.082535604E-2,1.095601848E-1
5.624037958E0,-3.780897349E-2,-1.019263244E-1,-7.102672239E-2,1.298587285E-1
5.634016958E0,-2.323771209E-2,-1.119642395E-1,-9.886939089E-2,1.511659308E-1
5.644026958E0,-3.446728975E-2,-5.469427049E-2,-1.038804547E-1,1.223544284E-1
5.654005958E0,-2.159902990E-2,-1.002388179E-1,-2.396253294E-1,2.606427386E-1
5.664015958E0,-3.162583530E-2,-7.710138559E-2,-9.005121410E-2,1.226948992E-1
5.673994958E0,-6.095634609E-2,-9.303914130E-2,-1.351554662E-1,1.750398754E-1
5.684004958E0,-3.941403419E-2,-8.285738468E-2,-2.059605700E-1,2.254740976E-1
5.693983958E0,-3.148871809E-2,-1.020140326E-1,-1.119870436E-1,1.547239482E-1
5.703993958E0,-2.603706658E-2,-4.739109814E-2,-1.679489905E-1,1.764389651E-1
5.713972958E0,-1.199410111E-2,-6.499881864E-2,-4.334716380E-2,7.904227663E-2
5.723982958E0,2.174024016E-2,-1.779570848E-1,1.724028146E-1,2.487249335E-1
5.733992958E0,-9.864311278E-2,-1.611551106E-2,-3.672384721E-1,3.805972527E-1
5.743971958E0,1.548050344E-2,-2.363637525E-1,1.930920178E-1,3.056010419E-1
5.753981958E0,-7.686457336E-2,-1.045628339E-1,-2.634527332E-1,2.936816158E-1
5.763960958E0,1.411956400E-2,-2.034217089E-1,7.865675409E-2,2.185558023E-1
5.773970958E0,-6.659832448E-2,-1.183803892E-1,3.939264617E-3,1.358851397E-1
5.783949958E0,-4.025983393E-2,-1.306425852E-1,-9.566571057E-2,1.668540304E-1
5.793959958E0,-4.762557149E-3,-5.022173524E-2,9.307890236E-2,1.058706130E-1
5.803938958E0,-2.943020582E-2,-3.925703645E-2,-1.909887743E-1,1.971901717E-1
5.813948958E0,-1.833686829E-2,-6.437375128E-2,1.013322473E-1,1.214431757E-1
5.823927958E0,-5.156601012E-2,-9.257955015E-2,-2.396212363E-1,2.620083270E-1
5.833937958E0,-2.819176555E-2,-1.192299896E-1,-2.124060015E-2,1.243452016E-1
5.843947958E0,-6.499355614E-2,-1.419358975E-1,-2.356047839E-1,2.826297499E-1
5.853926958E0,-9.121393293E-2,-1.285399264E-1,-1.603961420E-1,2.248764474E-1
5.863936958E0,-3.862261355E-2,-1.369300961E-1,-1.643821889E-1,2.174006935E-1
5.873915958E0,-3.814138770E-2,-5.842654824E-2,-2.187636334E-1,2.296213280E-1
5.883925958E0,-1.337725997E-2,-8.238434494E-2,-5.419024050E-2,9.951237883E-2
5.893904958E0,-1.877336293E-2,-4.361847460E-2,-1.326294690E-1,1.408743644E-1
5.903914958E0,3.666788936E-3,-6.528065443E-2,4.474874139E-2,7.923041739E-2
5.913893958E0,-3.595862210E-2,-7.318433583E-2,-7.068932891E-2,1.079164062E-1
5.923903958E0,-3.597382486E-2,-1.373160124E-1,-1.303929090E-2,1.425476287E-1
5.933882958E0,-6.829898715E-2,-1.298391777E-1,-4.117901166E-2,1.523767526E-1
5.943892958E0,-4.196108133E-2,-1.374627775E-1,-5.559298754E-2,1.541016801E-1
5.953901958E0,-2.376074553E-2,-1.087371612E-1,3.492015660E-2,1.166523064E-1
5.963881958E0,-3.729091018E-2,-1.206526172E-1,-1.374037206E-2,1.270293818E-1
5.973890958E0,-6.069994569E-3,-8.215864241E-2,4.846932014E-2,9.558327444E-2
5.983870958E0,1.162134111E-2,-6.202784836E-2,-4.653506577E-2,7.840932271E-2
5.993879958E0,-2.883759052E-2,-6.478948832E-2,-1.883856396E-2,7.337694403E-2
6.003859958E0,-5.757636309E-2,-1.026595652E-1,-1.276944190E-1,1.736660259E-1
6.013868958E0,-5.131838053E-2,-1.168022257E-1,-9.897698879E-2,1.614706798E-1
6.023848958E0,-5.905044615E-2,-1.537858647E-1,-1.192457771E-1,2.033632286E-1
6.033857958E0,-5.285356700E-2,-1.290638369E-1,-1.387210983E-1,1.967092186E-1
6.043908208E0,-3.468217492E-2,-1.109257740E-1,-1.112274903E-1,1.608693109E-1
6.053887208E0,-3.531747490E-2,-5.500300348E-2,-1.425761676E-1,1.568458415E-1
6.063897208E0,8.335790634E-3,-6.283768773E-2,-8.300707340E-2,1.044424944E-1
6.073876208E0,-5.757460892E-3,-3.727599978E-2,-6.855099758E-2,7.824249347E-2
6.083886208E0,-4.692975283E-3,-6.475089669E-2,-6.138289591E-2,8.934518761E-2
6.093865208E0,-2.475184858E-2,-1.040050095E-1,-5.286759575E-2,1.192672574E-1
6.103875208E0,-3.821623206E-2,-1.374247706E-1,-3.348057210E-2,1.465161994E-1
6.113854208E0,-4.096646994E-2,-1.279055035E-1,-6.448304853E-3,1.344605895E-1
6.123864208E0,-4.452303886E-2,-1.470709223E-1,-1.434672832E-2,1.543307674E-1
6.133843208E0,-1.868594706E-2,-8.407185137E-2,2.432967961E-2,8.949398930E-2
6.143853208E0,-1.219232172E-2,-3.396589100E-2,1.277148386E-2,3.828113453E-2
6.153863208E0,-2.815726697E-3,-5.819850683E-2,-6.162988138E-4,5.826984073E-2
6.163842208E0,-3.544085115E-2,-7.282648623E-2,-1.829009513E-2,8.303179275E-2
6.173852208E0,-4.704406589E-2,-1.141171843E-1,-5.602275789E-2,1.355522972E-1
6.183831208E0,-5.945302695E-2,-1.226517802E-1,-4.810562789E-2,1.445415963E-1
6.193841208E0,-4.862193704E-2,-1.232645684E-1,-9.734795451E-2,1.644228416E-1
6.203820208E0,-6.464389265E-2,-1.270050323E-1,-1.009065700E-1,1.746174302E-1
6.213830208E0,-5.518719077E-2,-1.167934549E-1,-1.245176268E-1,1.794184397E-1
6.223809208E0,-3.517246395E-2,-7.636580586E-2,-8.860578239E-2,1.221467282E-1
6.233819208E0,-2.061055809E-2,-3.936345577E-2,-1.215910953E-1,1.294552866E-1
6.243798208E0,-2.747898996E-2,-5.826984286E-2,-7.465374569E-2,9.860857580E-2
6.253808208E0,-3.704591185E-2,-9.229186714E-2,-6.005851070E-2,1.161775066E-1
6.263818208E0,-2.354264438E-2,-1.055527675E-1,-5.777049978E-2,1.226094347E-1
6.273797208E0,-1.728232294E-2,-1.266898674E-1,-4.513699651E-2,1.355962744E-1
6.283807208E0,-4.975717396E-2,-1.376978356E-1,-3.220120360E-2,1.499112664E-1
6.293786208E0,-2.462934941E-2,-1.359331459E-1,-9.524534144E-3,1.384743361E-1
6.303796208E0,-2.740677685E-2,-1.009217727E-1,9.319290023E-3,1.049913558E-1
6.313775208E0,-3.464387566E-2,-6.887026012E-2,3.935526510E-2,8.655719347E-2
6.323785208E0,-2.723399162E-2,-6.499764919E-2,2.498281360E-2,7.476981794E-2
6.333764208E0,-2.243927479E-2,-9.303037047E-2,-1.420346926E-2,9.674662486E-2
6.343774208E0,-6.645799130E-2,-1.094914520E-1,-8.587220907E-3,1.283697123E-1
6.353753208E0,-5.709075183E-2,-1.374230164E-1,-2.474775553E-2,1.508538723E-1
6.363763208E0,-5.189082295E-2,-1.289205801E-1,-3.334725559E-2,1.429168043E-1
6.373773208E0,-4.922770858E-2,-1.240808398E-1,-7.465491056E-2,1.529469769E-1
6.383752208E0,-3.067478567E-2,-9.484768510E-2,-8.234166026E-2,1.292949143E-1
6.393762208E0,-3.031196594E-2,-8.573538423E-2,-1.057644367E-1,1.394829289E-1
6.403741208E0,-3.501634330E-2,-7.284519732E-2,-1.136499918E-1,1.394592689E-1
6.413751208E0,-2.741203934E-2,-7.358545482E-2,-9.606682956E-2,1.240768907E-1
6.423730208E0,-3.821155429E-3,-7.818253577E-2,-8.176278591E-2,1.131912686E-1
6.433740208E0,-2.542895615E-2,-9.920619965E-2,-6.700616777E-2,1.223859811E-1
6.443719208E0,-1.164356053E-2,-1.077823108E-1,-8.126343369E-2,1.354855885E-1
6.453729208E0,-2.635340095E-2,-1.081091702E-1,-4.853890657E-2,1.214006585E-1
6.463708208E0,-2.256879061E-2,-9.749179602E-2,-2.695156882E-2,1.036358416E-1
6.473718208E0,-1.398215443E-2,-9.675504684E-2,1.817897062E-3,9.777701408E-2
6.483728208E0,1.114128470E-2,-9.529090405E-2,1.350823532E-2,9.688630987E-2
6.493707208E0,-4.522821307E-3,-1.027870345E-1,3.817880531E-2,1.097417494E-1
6.503717208E0,-3.519234449E-2,-1.018514800E-1,2.272812724E-3,1.077840005E-1
6.513696208E0,-4.003325433E-2,-1.054691523E-1,1.160496434E-2,1.134066962E-1
6.523706208E0,-6.357852995E-2,-1.214308816E-1,-2.911445846E-2,1.401261581E-1
6.533685208E0,-6.229185015E-2,-1.229108119E-1,-2.125580062E-2,1.394243570E-1
6.543695208E0,-5.161015660E-2,-1.097113073E-1,-4.986213148E-2,1.310969541E-1
6.553674208E0,-3.928539544E-2,-7.301008880E-2,-2.437236657E-2,8.641659339E-2
6.563684208E0,-1.334919333E-2,-6.335925937E-2,-3.529671957E-2,7.374588207E-2
6.573663208E0,-1.858098954E-2,-6.043623626E-2,-6.838435650E-2,9.313544996E-2
6.583673208E0,-3.675647467E-2,-6.090927601E-2,-1.049423182E-1,1.267827610E-1
6.593682208E0,-2.640485644E-2,-7.667395413E-2,-1.065549803E-1,1.339032319E-1
6.603662208E0,-1.365412563E-2,-1.037056321E-1,-7.138163924E-2,1.266358231E-1
6.613671208E0,-3.024647713E-2,-1.163677776E-1,-6.646062255E-2,1.373802147E-1
6.623651208E0,-5.838444829E-3,-1.243433797E-1,-3.607323209E-2,1.296018580E-1
6.633660208E0,2.877414823E-3,-9.770697355E-2,-1.710369051E-2,9.923441150E-2
6.643640208E0,-1.960483700E-2,-8.287960410E-2,-1.944783698E-2,8.735901083E-2
6.653649208E0,-1.113017499E-2,-6.553910136E-2,9.817475080E-3,6.719849269E-2
6.663629208E0,-1.533695430E-2,-8.597336590E-2,1.651195228E-2,8.887792966E-2
6.673638208E0,-2.171071172E-2,-1.196685308E-1,2.514886995E-2,1.241949191E-1
6.683618208E0,-2.992283374E-2,-1.268179214E-1,3.894187152E-2,1.359949651E-1
6.693627208E0,-4.543754339E-2,-1.495425403E-1,3.188486695E-2,1.595123395E-1
6.703637208E0,-4.459437490E-2,-1.126214665E-1,4.918677807E-3,1.212289008E-1
6.713616208E0,-3.896642983E-2,-1.005475509E-1,1.161844034E-3,1.078403567E-1
6.723626208E0,-5.746263474E-2,-8.405898750E-2,-1.225050380E-2,1.025570213E-1
6.733605208E0,-3.901466936E-2,-8.926710248E-2,-5.653555870E-2,1.126367143E-1
6.743615208E0,-1.845352024E-2,-9.358176291E-2,-5.380490899E-2,1.095127709E-1
6.753594208E0,-2.675919771E-2,-9.625686407E-2,-8.261297107E-2,1.296392746E-1
6.763604208E0,-2.210276753E-2,-9.641123056E-2,-7.414094031E-2,1.236144682E-1
6.773583208E0,-2.445861071E-2,-1.013620681E-1,-8.210192442E-2,1.327148013E-1
6.783593208E0,-2.170164853E-2,-1.009305435E-1,-5.780732810E-2,1.183200040E-1
6.793573208E0,-3.815337449E-2,-9.210241735E-2,-6.528767109E-2,1.191680128E-1
6.803582208E0,-3.041429222E-2,-9.351861298E-2,-6.546601117E-2,1.181378803E-1
6.813592208E0,-3.423632473E-2,-6.165362656E-2,-4.080362499E-2,8.147534235E-2
6.823571208E0,-1.862104297E-2,-6.955847740E-2,7.512501528E-3,7.239863741E-2
6.833581208E0,-2.040122777E-2,-8.352396727E-2,1.773109674E-2,8.778869514E-2
6.843560208E0,-3.020905495E-2,-1.097382045E-1,1.953847110E-2,1.154851176E-1
6.853570208E0,-2.422442973E-2,-1.311419374E-1,2.864434004E-2,1.364020856E-1
6.863549208E0,-2.861218035E-2,-1.176570886E-1,1.903268695E-2,1.225727969E-1
6.873559208E0,-2.920216441E-2,-8.910922766E-2,1.544366484E-2,9.503540205E-2
6.883538208E0,-2.763189465E-2,-6.862116873E-2,3.634921610E-2,8.242361258E-2
6.893548208E0,-3.910091579E-2,-8.244866431E-2,9.274267604E-3,9.172064054E-2
6.903558208E0,-3.225791931E-2,-8.707732022E-2,-1.024724772E-2,9.342397519E-2
6.913537208E0,-3.220178604E-2,-9.588381171E-2,-3.515287578E-2,1.070812077E-1
6.923547208E0,-4.266450137E-2,-1.054673982E-1,-6.180097640E-2,1.294719755E-1
6.933526208E0,-5.749713331E-2,-9.329934239E-2,-7.078756213E-2,1.304667260E-1
6.943536208E0,-2.941091001E-2,-1.160362405E-1,-6.363992572E-2,1.355708334E-1
6.953515208E0,-3.710467637E-2,-7.545480967E-2,-7.667219996E-2,1.137928449E-1
6.963525208E0,-3.406734020E-2,-8.250304341E-2,-7.787555695E-2,1.184564823E-1
6.973504208E0,-3.380801618E-2,-7.609624922E-2,-4.897978663E-2,9.660559302E-2
6.983514208E0,7.125124633E-3,-9.931671202E-2,-4.896341443E-2,1.109594189E-1
6.993493208E0,-3.288035542E-2,-8.527579308E-2,-2.326724052E-2,9.431035542E-2
7.003503208E0,-2.884022176E-2,-1.206426769E-1,-5.112221787E-3,1.241472863E-1
7.013513208E0,-2.573067248E-2,-9.841039360E-2,-6.190449495E-3,1.019067944E-1
7.023492208E0,-2.473050624E-2,-9.196091473E-2,2.085350990E-2,9.748475087E-2
7.033502208E0,-2.729714155E-2,-9.453953683E-2,1.013790250E-2,9.892236870E-2
7.043491208E0,-2.142887592E-2,-1.099650764E-1,2.715856254E-2,1.152783687E-1
7.053501208E0,-3.882200360E-2,-1.035606211E-1,1.697212815E-2,1.118928208E-1
7.063480208E0,-3.958272636E-2,-9.883490145E-2,1.088517666E-2,1.070215728E-1
7.073490208E0,-2.952171475E-2,-9.779526651E-2,1.554248393E-2,1.033296405E-1
7.083469208E0,-4.596847057E-2,-1.087283903E-1,1.018818855E-2,1.184852832E-1
7.093479208E0,-3.713157356E-2,-1.106755131E-1,-2.374963582E-2,1.191296276E-1
7.103458208E0,-4.478411704E-2,-9.136040568E-2,-3.483771086E-2,1.075453717E-1
7.113468208E0,-4.578632981E-2,-8.609264910E-2,-3.380275369E-2,1.032034805E-1
7.123478208E0,-3.120629758E-2,-9.355311155E-2,-6.063679576E-2,1.157706297E-1
7.133457208E0,-2.735649079E-2,-9.358293235E-2,-5.557778478E-2,1.122275945E-1
7.143467208E0,-2.636831135E-2,-8.282990277E-2,-7.355329514E-2,1.138690821E-1
7.153446208E0,-1.305770963E-2,-9.165861368E-2,-3.868810236E-2,1.003422867E-1
7.163456208E0,-2.604437560E-2,-1.018883175E-1,-5.406861842E-2,1.182495422E-1
7.173435208E0,-3.082827508E-2,-1.174986291E-1,-2.127977192E-2,1.233253383E-1
7.183445208E0,-2.647794664E-2,-1.045195645E-1,8.497758508E-3,1.081555959E-1
7.193424208E0,-4.207364023E-2,-1.396204001E-1,2.201475551E-3,1.458385882E-1
7.203434208E0,-6.316133112E-2,-1.143276840E-1,1.144884254E-3,1.306196151E-1
7.213413208E0,-4.672773153E-2,-1.283890682E-1,4.631871879E-2,1.442659262E-1
7.223423208E0,-1.143130660E-2,-1.253865230E-1,-2.676270604E-3,1.259349727E-1
7.233432208E0,-1.299075902E-2,-7.986361027E-2,1.044236702E-1,1.321032133E-1
7.243412208E0,-1.799948394E-2,-6.981517017E-2,3.513241053E-2,8.020240444E-2
7.253421208E0,-3.191088706E-2,-1.008036590E-1,4.199704170E-2,1.137692133E-1
7.263401208E0,-6.568265051E-2,-9.962193668E-2,-7.329250932E-2,1.400376120E-1
7.273410208E0,-5.072313398E-2,-1.355858213E-1,-6.687986791E-2,1.594655699E-1
7.283390208E0,-6.928424299E-2,-1.319260490E-1,-4.561939180E-2,1.558393969E-1
7.293399208E0,-1.531619668E-2,-1.288042206E-1,-1.990567625E-2,1.312301378E-1
7.303379208E0,-8.449226618E-4,-8.499980450E-2,-3.753912449E-4,8.500483267E-2
7.313388208E0,-6.860245764E-3,-9.528096378E-2,-3.834662497E-2,1.029368189E-1
7.323368208E0,-2.606981099E-3,-6.397146285E-2,-4.299165308E-2,7.711956071E-2
7.333377208E0,-1.557785958E-2,-7.476366878E-2,-9.696028411E-2,1.234243597E-1
7.343387208E0,-4.195611119E-2,-9.628317654E-2,-5.476034403E-2,1.184460241E-1
7.353366208E0,-3.873604953E-2,-1.547231734E-1,-5.128651321E-2,1.675411840E-1
7.363376208E0,-3.493331283E-2,-1.585636246E-1,1.198796153E-2,1.628080791E-1
7.373355208E0,-2.313626289E-2,-1.362108886E-1,-1.748200536E-2,1.392634674E-1
7.383365208E0,-1.037588418E-2,-1.057521576E-1,3.994291484E-2,1.135192241E-1
7.393344208E0,-4.336002767E-3,-8.861923099E-2,1.516884685E-2,9.001257098E-2
7.403354208E0,-1.722238898E-2,-6.971459806E-2,3.805017114E-2,8.126839108E-2
7.413333208E0,-2.204312593E-2,-5.997547567E-2,3.098965824E-2,7.101630799E-2
7.423343208E0,-3.007369190E-2,-9.341160893E-2,1.283756196E-2,9.896948331E-2
7.433322208E0,-7.015284687E-2,-1.393759865E-1,7.371000051E-3,1.562095361E-1
7.443332208E0,-7.140298158E-2,-1.672034705E-1,-5.361896753E-3,1.818904512E-1
7.453342208E0,-5.906769544E-2,-1.592459947E-1,1.674701035E-2,1.706714441E-1
7.463321208E0,-4.829624712E-2,-9.528681099E-2,-2.910977840E-2,1.107225498E-1
7.473331208E0,-2.810376495E-2,-6.092272460E-2,-1.678794086E-2,6.916093504E-2
7.483310208E0,-2.298803598E-2,-4.681924045E-2,-5.443757772E-2,7.539191563E-2
7.493320208E0,-2.530908823E-2,-5.678932786E-2,-7.962036610E-2,1.010197030E-1
7.503299208E0,-1.069543451E-2,-8.278195560E-2,5.565381000E-3,8.365535224E-2
7.513309208E0,-3.369808853E-2,-1.282335323E-1,-5.212032616E-2,1.424637792E-1
7.523288208E0,-3.921873719E-2,-1.223722833E-1,2.198553085E-3,1.285220554E-1
7.533298208E0,-5.010186732E-2,-1.531917876E-1,-3.665853381E-2,1.652929793E-1
7.543277208E0,-4.512003958E-2,-1.410500443E-1,-3.599896789E-2,1.524036045E-1
7.553287208E0,-1.425434232E-2,-7.388775587E-2,-1.263582731E-3,7.526076922E-2
7.563297208E0,-9.241524339E-3,-6.821888030E-2,9.122826432E-3,6.944384323E-2
7.573276208E0,1.205198854E-2,-7.275982797E-2,5.017963529E-2,8.920335639E-2